#undulator wavenumber	set wavenumber	counts
1800.087340	1800.000000	7258.000	1792.114695
1798.030797	1798.000000	7428.500	1792.114695
1796.084751	1796.000000	7328.000	1788.908766
1794.049568	1794.000000	7174.000	1785.714286
1792.063310	1792.000000	7098.000	1788.908766
1790.029535	1790.000000	7273.000	1785.714286
1788.075503	1788.000000	6813.000	1782.531194
1786.047575	1786.000000	6930.500	1782.531194
1784.081533	1784.000000	7214.000	1779.359431
1782.061696	1782.000000	7110.500	1776.198934
1780.057517	1780.000000	7020.500	1773.049645
1778.074598	1778.000000	6929.500	1773.049645
1776.037419	1776.000000	7071.000	1769.911504
1774.073827	1774.000000	7247.500	1769.911504
1772.068096	1772.000000	7169.500	1769.911504
1770.059375	1770.000000	7097.500	1766.784452
1768.066769	1768.000000	7118.000	1766.784452
1766.044336	1766.000000	7152.500	1760.563380
1764.081605	1764.000000	6846.000	1760.563380
1762.066411	1762.000000	6668.000	1757.469244
1760.092370	1760.000000	6753.000	1760.563380
1758.063093	1758.000000	6529.000	1754.385965
1756.063159	1756.000000	6927.000	1751.313485
1754.079155	1754.000000	6810.000	1748.251748
1752.033936	1752.000000	6949.000	1751.313485
1750.085360	1750.000000	6986.500	1745.200698
1748.056162	1748.000000	6840.000	1742.160279
1746.067028	1746.000000	6697.500	1745.200698
1744.069032	1744.000000	7023.500	1739.130435
1742.055877	1742.000000	6986.000	1736.111111
1740.072495	1740.000000	6812.000	1739.130435
1738.052540	1738.000000	7035.000	1733.102253
1736.090314	1736.000000	7316.000	1730.103806
1734.052827	1734.000000	7154.000	1730.103806
1732.071415	1732.000000	7322.500	1724.137931
1730.053222	1730.000000	7359.000	1724.137931
1728.067497	1728.000000	7121.500	1721.170396
1726.094966	1726.000000	7315.000	1718.213058
1724.076994	1724.000000	7421.500	1718.213058
1722.091611	1722.000000	7236.000	1715.265866
1720.060498	1720.000000	7186.500	1715.265866
1718.051290	1718.000000	7144.500	1715.265866
1716.077692	1716.000000	7193.000	1712.328767
1714.033996	1714.000000	7085.000	1706.484642
1712.085147	1712.000000	7248.500	1703.577513
1710.068198	1710.000000	7146.500	1706.484642
1708.089546	1708.000000	6834.500	1700.680272
1706.064531	1706.000000	6866.000	1700.680272
1704.064056	1704.000000	7073.000	1700.680272
1702.062185	1702.000000	6719.500	1700.680272
1700.031485	1700.000000	6810.500	1694.915254
1698.077420	1698.000000	6950.500	1692.047377
1696.016515	1696.000000	6970.500	1692.047377
1694.077117	1694.000000	7032.500	1689.189189
1692.026191	1692.000000	7138.000	1692.047377
1690.093046	1690.000000	7158.000	1686.340641
1688.058874	1688.000000	7469.500	1683.501684
1686.084174	1686.000000	7155.500	1683.501684
1684.065023	1684.000000	7328.500	1683.501684
1682.048722	1682.000000	7129.000	1683.501684
1680.060670	1680.000000	7294.000	1675.041876
1678.041269	1678.000000	7575.500	1675.041876
1676.061831	1676.000000	7152.500	1672.240803
1674.044179	1674.000000	6940.500	1672.240803
1672.062132	1672.000000	7042.500	1669.449082
1670.044052	1670.000000	7229.500	1666.666667
1668.063670	1668.000000	7239.000	1666.666667
1666.010536	1666.000000	7295.000	1661.129568
1664.067116	1664.000000	6939.000	1661.129568
1662.020488	1662.000000	7039.500	1661.129568
1660.030418	1660.000000	7131.500	1655.629139
1658.048682	1658.000000	7074.000	1655.629139
1656.028615	1656.000000	7169.000	1655.629139
1654.035076	1654.000000	7096.500	1652.892562
1652.001028	1652.000000	7152.500	1647.446458
1650.059097	1650.000000	7160.000	1650.165017
1648.006020	1648.000000	7370.000	1644.736842
1646.057749	1646.000000	7657.000	1644.736842
1643.997854	1644.000000	7390.500	1639.344262
1642.026149	1642.000000	7372.000	1639.344262
1640.004028	1640.000000	7362.000	1636.661211
1637.992784	1638.000000	7385.000	1633.986928
1635.980579	1636.000000	7065.000	1633.986928
1633.965035	1634.000000	7016.500	1631.321370
1631.965105	1632.000000	6927.500	1628.664495
1629.935792	1630.000000	7282.500	1620.745543
1627.912845	1628.000000	7300.000	1620.745543
1625.950958	1626.000000	7273.000	1615.508885
1623.933401	1624.000000	7175.000	1623.376623
1621.922159	1622.000000	7210.000	1615.508885
1619.926915	1620.000000	7428.000	1612.903226
1617.935527	1618.000000	7052.500	1610.305958
1615.955818	1616.000000	6994.500	1610.305958
1613.924684	1614.000000	7291.500	1607.717042
1611.982316	1612.000000	7176.500	1605.136437
1609.947414	1610.000000	7105.500	1610.305958
1608.006328	1608.000000	6980.500	1600.000000
1605.974998	1606.000000	7155.000	1600.000000
1604.013627	1604.000000	6971.000	1597.444089
1601.983384	1602.000000	7086.500	1600.000000
1600.011264	1600.000000	7332.000	1594.896332
1597.982451	1598.000000	7265.500	1594.896332
1596.023985	1596.000000	7323.500	1589.825119
1593.977062	1594.000000	7034.500	1587.301587
1592.034985	1592.000000	7283.000	1584.786054
1589.984623	1590.000000	7430.500	1582.278481
1588.007368	1588.000000	7164.000	1582.278481
1585.990502	1586.000000	7218.500	1579.778831
1583.995311	1584.000000	7028.000	1582.278481
1581.997376	1582.000000	7042.500	1579.778831
1580.013961	1580.000000	6966.500	1577.287066
1578.022813	1578.000000	7158.500	1574.803150
1576.021526	1576.000000	6968.000	1572.327044
1574.010195	1574.000000	7167.000	1569.858713
1572.040567	1572.000000	7512.500	1572.327044
1570.008812	1570.000000	7304.000	1569.858713
1568.021395	1568.000000	7220.500	1564.945227
1566.021591	1566.000000	7140.000	1562.500000
1564.014161	1564.000000	7321.000	1562.500000
1562.043834	1562.000000	7331.500	1560.062402
1560.040985	1560.000000	7332.000	1564.945227
1558.020691	1558.000000	7198.500	1552.795031
1556.025233	1556.000000	7154.500	1552.795031
1554.024496	1554.000000	7328.500	1555.209953
1552.013963	1552.000000	7331.500	1552.795031
1550.051152	1550.000000	7220.000	1545.595054
1548.027874	1548.000000	7429.500	1547.987616
1546.034730	1546.000000	7289.500	1540.832049
1544.014051	1544.000000	7346.000	1540.832049
1542.061659	1542.000000	7212.000	1540.832049
1540.038538	1540.000000	7098.500	1536.098310
1538.048395	1538.000000	7353.000	1536.098310
1536.037907	1536.000000	7103.500	1531.393568
1534.065850	1534.000000	7429.500	1533.742331
1532.055895	1532.000000	7298.000	1529.051988
1530.053541	1530.000000	7245.000	1522.070015
1528.033532	1528.000000	7324.000	1522.070015
1526.070084	1526.000000	7378.000	1519.756839
1524.035255	1524.000000	7240.500	1519.756839
1522.092719	1522.000000	7418.500	1515.151515
1520.009558	1520.000000	7099.500	1517.450683
1518.077955	1518.000000	7202.000	1515.151515
1516.023458	1516.000000	7182.000	1515.151515
1514.079959	1514.000000	7275.500	1508.295626
1512.043807	1512.000000	7433.000	1508.295626
1510.067621	1510.000000	7522.500	1503.759398
1508.011537	1508.000000	7439.000	1501.501502
1506.049046	1506.000000	7303.500	1503.759398
1504.047995	1504.000000	7378.000	1499.250375
1502.086548	1502.000000	7434.000	1497.005988
1500.013875	1500.000000	7482.000	1494.768311
1498.027024	1498.000000	7374.500	1494.768311
1496.035804	1496.000000	7406.500	1494.768311
1494.039827	1494.000000	7265.500	1492.537313
1492.046942	1492.000000	7141.500	1485.884101
1490.052040	1490.000000	7393.500	1488.095238
1488.047187	1488.000000	7325.500	1479.289941
1486.048163	1486.000000	7571.500	1479.289941
1484.039085	1484.000000	7196.500	1479.289941
1482.030821	1482.000000	7289.500	1477.104874
1480.025794	1480.000000	7354.500	1472.754050
1478.031865	1478.000000	7188.500	1474.926254
1476.022821	1476.000000	7240.000	1470.588235
1474.048564	1474.000000	7267.500	1466.275660
1472.054011	1472.000000	7524.500	1468.428781
1470.028544	1470.000000	7308.000	1464.128843
1468.059287	1468.000000	7370.500	1461.988304
1466.024587	1466.000000	7541.500	1459.854015
1464.070109	1464.000000	7247.000	1457.725948
1462.015877	1462.000000	7303.000	1453.488372
1460.057570	1460.000000	7092.500	1451.378810
1458.026054	1458.000000	7450.000	1451.378810
1456.035164	1456.000000	7228.500	1451.378810
1454.055623	1454.000000	7096.000	1447.178003
1452.055733	1452.000000	6978.000	1447.178003
1450.053978	1450.000000	6849.000	1445.086705
1448.058573	1448.000000	7026.500	1440.922190
1446.040214	1446.000000	7030.000	1440.922190
1444.049160	1444.000000	7225.000	1436.781609
1442.059214	1442.000000	7350.500	1436.781609
1440.064791	1440.000000	7475.000	1436.781609
1438.076912	1438.000000	7797.500	1432.664756
1435.977379	1436.000000	7628.500	1430.615165
1433.980608	1434.000000	7357.500	1426.533524
1431.990408	1432.000000	7527.500	1426.533524
1430.046624	1430.000000	7621.500	1422.475107
1427.964340	1428.000000	7627.000	1420.454545
1426.047121	1426.000000	7318.500	1418.439716
1423.988424	1424.000000	7505.500	1418.439716
1422.022204	1422.000000	7717.000	1416.430595
1419.992644	1420.000000	7984.000	1414.427157
1418.023361	1418.000000	7610.000	1412.429379
1416.012209	1416.000000	7648.000	1410.437236
1414.026549	1414.000000	7873.500	1408.450704
1412.014948	1412.000000	7707.500	1406.469761
1410.026160	1410.000000	8083.000	1404.494382
1408.027899	1408.000000	7173.500	1402.524544
1406.022642	1406.000000	6969.000	1398.601399
1403.991548	1404.000000	6476.000	1398.601399
1402.067348	1402.000000	6334.500	1396.648045
1400.066083	1400.000000	5863.000	1396.648045
1398.052345	1398.000000	6010.000	1392.757660
1396.072457	1396.000000	6172.500	1392.757660
1394.044919	1394.000000	6508.500	1390.820584
1392.054266	1392.000000	6034.500	1386.962552
1390.056730	1390.000000	6549.500	1386.962552
1388.044110	1388.000000	6695.000	1385.041551
1386.079191	1386.000000	6421.500	1381.215470
1384.020405	1384.000000	6756.500	1377.410468
1382.017383	1382.000000	6990.000	1373.626374
1380.043195	1380.000000	6930.500	1375.515818
1378.064954	1378.000000	6997.000	1367.989056
1376.052611	1376.000000	6965.000	1367.989056
1374.052745	1374.000000	7092.000	1367.989056
1372.054354	1372.000000	7555.000	1366.120219
1370.049190	1370.000000	6884.000	1362.397820
1368.029105	1368.000000	7098.500	1362.397820
1366.054529	1366.000000	7209.500	1360.544218
1364.056617	1364.000000	7139.500	1356.852103
1362.057677	1362.000000	7007.000	1356.852103
1360.065697	1360.000000	7056.500	1355.013550
1358.080825	1358.000000	6825.500	1351.351351
1356.081142	1356.000000	7242.000	1349.527665
1354.060937	1354.000000	6680.500	1349.527665
1352.058990	1352.000000	6790.000	1349.527665
1350.036525	1350.000000	6746.500	1345.895020
1348.073529	1348.000000	6799.000	1342.281879
1346.076550	1346.000000	6418.500	1340.482574
1344.053504	1344.000000	6373.500	1340.482574
1342.070931	1342.000000	6313.500	1336.898396
1340.081807	1340.000000	5903.000	1335.113485
1338.069385	1338.000000	6052.000	1331.557923
1336.058715	1336.000000	5174.500	1329.787234
1334.105158	1334.000000	5445.500	1328.021248
1332.051012	1332.000000	4874.000	1324.503311
1330.101187	1330.000000	4494.000	1322.751323
1328.022836	1328.000000	4911.000	1322.751323
1326.098669	1326.000000	5003.500	1322.751323
1324.023857	1324.000000	4554.000	1319.261214
1322.072973	1322.000000	3571.500	1319.261214
1320.018396	1320.000000	3350.500	1315.789474
1318.071298	1318.000000	3118.500	1312.335958
1316.045410	1316.000000	2267.500	1308.900524
1314.029711	1314.000000	2225.000	1308.900524
1312.085594	1312.000000	1504.500	1305.483029
1310.073760	1310.000000	1599.000	1303.780965
1308.069454	1308.000000	1426.000	1300.390117
1306.064278	1306.000000	1654.500	1298.701299
1304.061159	1304.000000	1555.500	1300.390117
1302.029252	1302.000000	1505.000	1297.016861
1300.063326	1300.000000	1369.000	1293.661061
1298.054968	1298.000000	1252.500	1293.661061
1296.070948	1296.000000	1338.500	1290.322581
1293.999543	1294.000000	1371.500	1288.659794
1292.050260	1292.000000	1754.000	1285.347044
1289.966051	1290.000000	1791.000	1285.347044
1288.051621	1288.000000	2419.500	1283.697047
1285.971682	1286.000000	3027.000	1280.409731
1284.053088	1284.000000	2855.500	1277.139208
1281.982745	1282.000000	3291.000	1278.772379
1280.009667	1280.000000	3312.500	1273.885350
1277.988262	1278.000000	3228.000	1272.264631
1275.997166	1276.000000	2983.000	1272.264631
1273.999767	1274.000000	3597.500	1269.035533
1271.984827	1272.000000	3485.500	1265.822785
1270.008508	1270.000000	4044.500	1264.222503
1267.972882	1268.000000	3538.000	1262.626263
1266.034645	1266.000000	3207.500	1261.034048
1264.000544	1264.000000	3216.500	1257.861635
1262.069645	1262.000000	3351.000	1256.281407
1259.966969	1260.000000	3504.000	1253.132832
1258.088408	1258.000000	3176.000	1254.705144
1256.018211	1256.000000	4406.500	1251.564456
1254.079678	1254.000000	4485.500	1248.439451
1252.045059	1252.000000	5029.000	1245.330012
1250.068910	1250.000000	4097.000	1243.781095
1248.010671	1248.000000	4333.500	1242.236025
1246.053282	1246.000000	4302.000	1239.157373
1243.991366	1244.000000	4490.500	1236.093943
1242.075249	1242.000000	4006.000	1236.093943
1240.051839	1240.000000	4274.000	1236.093943
1238.058922	1238.000000	4286.000	1233.045623
1236.076831	1236.000000	4736.000	1230.012300
1234.018230	1234.000000	4710.000	1230.012300
1232.080468	1232.000000	4836.000	1226.993865
1230.049217	1230.000000	5288.500	1223.990208
1228.096590	1228.000000	5884.000	1222.493888
1226.067620	1226.000000	5951.000	1221.001221
1224.072013	1224.000000	6470.500	1221.001221
1222.073184	1222.000000	6582.000	1218.026797
1220.068517	1220.000000	6775.500	1215.066829
1218.049348	1218.000000	6793.000	1215.066829
1216.097630	1216.000000	6650.000	1210.653753
1214.060914	1214.000000	7055.000	1209.189843
1212.052162	1212.000000	6723.500	1207.729469
1210.062932	1210.000000	6813.000	1204.819277
1208.059351	1208.000000	6892.500	1204.819277
1206.080867	1206.000000	6688.000	1201.923077
1204.043032	1204.000000	6761.000	1201.923077
1202.075359	1202.000000	6730.000	1199.040767
1200.037057	1200.000000	6626.000	1197.604790
1198.088761	1198.000000	6814.000	1194.743130
1196.075390	1196.000000	6540.000	1193.317422
1194.050524	1194.000000	7076.500	1189.060642
1192.062343	1192.000000	6844.500	1187.648456
1190.079497	1190.000000	6999.000	1184.834123
1188.065549	1188.000000	6743.000	1183.431953
1186.043072	1186.000000	6751.500	1182.033097
1184.082427	1184.000000	7005.000	1177.856302
1182.037149	1182.000000	7088.500	1176.470588
1180.087626	1180.000000	7056.000	1175.088132
1178.064718	1178.000000	7154.000	1173.708920
1176.053020	1176.000000	6926.500	1172.332943
1174.038395	1174.000000	6898.500	1169.590643
1172.071871	1172.000000	7013.000	1166.861144
1170.054286	1170.000000	7173.000	1165.501166
1168.039678	1168.000000	6909.500	1162.790698
1166.061772	1166.000000	7045.500	1160.092807
1164.058303	1164.000000	6967.500	1158.748552
1162.086014	1162.000000	7299.500	1157.407407
1160.045975	1160.000000	7183.000	1156.069364
1158.053988	1158.000000	7164.500	1153.402537
1156.050787	1156.000000	7527.500	1150.747986
1154.067291	1154.000000	7329.000	1148.105626
1152.069884	1152.000000	7035.500	1146.788991
1150.038641	1150.000000	7269.000	1145.475372
1148.080977	1148.000000	7190.000	1144.164760
1146.047083	1146.000000	7144.000	1140.250855
1144.078234	1144.000000	7186.500	1138.952164
1142.047529	1142.000000	7013.500	1137.656428
1140.064831	1140.000000	7083.000	1135.073780
1138.071131	1138.000000	7129.500	1132.502831
1136.052126	1136.000000	7064.500	1131.221719
1134.081298	1134.000000	6884.500	1129.943503
1132.065390	1132.000000	7248.000	1127.395716
1130.072344	1130.000000	6732.500	1126.126126
1128.062634	1128.000000	6855.500	1123.595506
1126.072866	1126.000000	6925.500	1122.334456
1124.018465	1124.000000	6602.000	1119.820829
1122.063070	1122.000000	6604.000	1119.820829
1120.060017	1120.000000	7047.000	1116.071429
1118.068479	1118.000000	7168.000	1112.347052
1116.046143	1116.000000	6917.000	1111.111111
1114.060897	1114.000000	7318.000	1109.877913
1112.044858	1112.000000	7149.000	1108.647450
1110.054463	1110.000000	7185.000	1106.194690
1108.073021	1108.000000	7481.500	1103.752759
1106.035392	1106.000000	7465.500	1102.535832
1104.060215	1104.000000	7273.000	1098.901099
1102.037425	1102.000000	7341.500	1097.694841
1100.057368	1100.000000	7382.000	1096.491228
1098.066448	1098.000000	7287.500	1094.091904
1096.016768	1096.000000	7577.500	1092.896175
1094.077300	1094.000000	7427.000	1089.324619
1092.059407	1092.000000	7478.000	1088.139282
1090.070094	1090.000000	7570.500	1086.956522
1088.044685	1088.000000	7880.000	1083.423619
1086.036696	1086.000000	7700.000	1082.251082
1084.057258	1084.000000	7892.000	1079.913607
1082.052940	1082.000000	8110.000	1078.748652
1080.057653	1080.000000	7935.500	1077.586207
1078.026246	1078.000000	7938.000	1074.113856
1076.076916	1076.000000	7783.000	1071.811361
1074.043830	1074.000000	7879.000	1070.663812
1072.045074	1072.000000	8020.500	1067.235859
1070.046759	1070.000000	8087.500	1066.098081
1068.077098	1068.000000	8217.000	1066.098081
1066.060348	1066.000000	8109.000	1061.571125
1064.044294	1064.000000	8273.000	1061.571125
1062.037204	1062.000000	8444.000	1057.082452
1060.067113	1060.000000	8271.500	1055.966209
1058.069611	1058.000000	8125.000	1053.740780
1056.064455	1056.000000	8403.000	1053.740780
1054.076663	1054.000000	8106.500	1049.317943
1052.050404	1052.000000	8319.500	1048.218029
1050.089147	1050.000000	8276.000	1048.218029
1048.061479	1048.000000	8618.500	1043.841336
1046.084850	1046.000000	8649.000	1040.582726
1044.047421	1044.000000	8376.500	1041.666667
1042.069383	1042.000000	8490.000	1037.344398
1040.044630	1040.000000	8489.500	1036.269430
1038.104454	1038.000000	8794.000	1034.126163
1036.072845	1036.000000	8313.500	1031.991744
1034.050454	1034.000000	8323.500	1029.866117
1032.073437	1032.000000	8584.500	1028.806584
1030.038710	1030.000000	8432.000	1027.749229
1028.082801	1028.000000	8767.000	1025.641026
1026.049762	1026.000000	8708.500	1022.494888
1024.081586	1024.000000	9335.500	1020.408163
1022.053043	1022.000000	9323.000	1019.367992
1020.086524	1020.000000	9392.500	1016.260163
1018.065263	1018.000000	9636.000	1016.260163
1016.075431	1016.000000	9552.500	1011.122346
1014.064363	1014.000000	9749.000	1011.122346
1012.051407	1012.000000	9917.000	1009.081736
1010.086624	1010.000000	9972.000	1006.036217
1008.075491	1008.000000	9654.000	1004.016064
1006.076501	1006.000000	9967.500	1003.009027
1004.059009	1004.000000	10081.000	1001.001001
1002.084034	1002.000000	9764.500	1000.000000
1000.054703	1000.000000	9596.500	997.008973
998.076208	998.000000	9567.500	994.035785
996.065541	996.000000	9732.500	992.063492
994.077979	994.000000	9480.500	993.048659
992.052765	992.000000	9950.500	990.099010
990.081071	990.000000	9632.500	987.166831
988.071800	988.000000	9549.000	962.463908
986.060944	986.000000	9834.500	982.318271
984.095153	984.000000	9629.500	980.392157
982.058865	982.000000	9340.500	979.431929
980.081606	980.000000	9490.000	977.517107
978.055850	978.000000	9723.500	975.609756
976.086277	976.000000	9561.000	973.709834
974.049092	974.000000	9225.500	972.762646
972.059794	972.000000	9214.500	969.932105
970.057996	970.000000	9109.000	967.117988
968.046339	968.000000	9378.500	965.250965
966.055141	966.000000	10003.000	963.391137
964.051484	964.000000	9951.500	961.538462
962.073615	962.000000	10473.500	959.692898
960.061444	960.000000	10498.000	957.854406
958.075112	958.000000	10231.000	955.109838
956.079158	956.000000	10493.000	954.198473
954.092686	954.000000	10326.500	951.474786
952.050092	952.000000	10485.000	949.667616
950.079769	950.000000	10036.000	948.766603
948.064460	948.000000	9710.000	946.969697
946.091337	946.000000	9429.500	944.287063
944.065088	944.000000	9650.500	942.507069
942.078294	942.000000	9267.000	939.849624
940.057515	940.000000	8155.500	938.967136
938.076184	938.000000	7878.000	918.273646
936.060953	936.000000	7034.000	934.579439
934.060730	934.000000	6436.500	932.835821
932.080853	932.000000	6127.500	930.232558
930.075354	930.000000	5861.000	928.505107
928.084840	928.000000	6416.000	926.784059
926.068695	926.000000	6448.000	924.214418
924.086480	924.000000	7180.500	922.509225
922.062484	922.000000	7322.500	919.963201
920.088730	920.000000	8225.500	918.273646
918.081262	918.000000	9155.000	917.431193
916.099654	916.000000	9546.000	914.076782
914.079206	914.000000	10333.500	912.408759
912.092523	912.000000	10121.000	911.577028
910.080580	910.000000	10470.500	909.918107
908.091760	908.000000	10271.000	907.441016
906.072288	906.000000	10365.000	904.977376
904.062513	904.000000	9760.500	877.192982
902.083768	902.000000	9978.000	900.900901
900.074616	900.000000	10004.000	899.280576
898.075120	898.000000	9855.500	896.057348
896.069231	896.000000	9669.500	895.255148
894.091788	894.000000	10032.500	893.655049
892.059944	892.000000	10408.000	891.265597
890.096493	890.000000	10382.000	889.679715
888.092132	888.000000	10408.500	888.888889
886.094737	886.000000	9962.500	887.311446
884.075276	884.000000	9684.500	883.392226
882.102735	882.000000	9153.500	881.834215
880.081425	880.000000	9120.500	879.507476
878.093876	878.000000	9255.000	877.963126
876.089494	876.000000	8768.000	876.424189
874.092255	874.000000	8731.000	873.362445
872.083643	872.000000	9070.500	871.839582
870.105894	870.000000	8826.500	870.322019
868.079895	868.000000	9047.500	867.302689
866.087387	866.000000	8811.000	867.302689
864.083621	864.000000	9120.000	864.304235
862.084424	862.000000	9125.000	862.812770
860.068713	860.000000	9590.500	859.845228
858.104891	858.000000	9526.500	858.369099
856.079948	856.000000	9552.500	856.898029
854.085840	854.000000	9712.000	854.700855
852.085898	852.000000	9674.000	852.514919
850.108814	850.000000	10028.000	849.617672
848.076220	848.000000	9684.000	848.176421
846.090116	846.000000	10053.000	846.023689
844.077312	844.000000	9992.000	844.594595
842.084840	842.000000	10008.500	843.170320
840.078746	840.000000	10357.000	842.459983
838.074811	838.000000	10559.500	837.520938
836.072935	836.000000	10556.500	837.520938
834.065434	834.000000	11077.000	834.724541
832.075582	832.000000	12005.500	832.639467
830.077562	830.000000	11451.000	829.875519
828.079034	828.000000	11950.000	828.500414
826.093041	826.000000	11960.000	827.814570
824.093732	824.000000	12811.500	808.407437
822.096575	822.000000	12403.500	822.368421
820.078473	820.000000	13509.500	821.018062
818.090936	818.000000	14282.500	818.330606
816.085103	816.000000	14971.000	816.993464
814.058398	814.000000	15063.000	814.995925
812.087896	812.000000	16084.500	813.669650
810.053017	810.000000	16921.000	811.030008
808.092170	808.000000	18320.500	808.407437
806.049238	806.000000	18890.000	807.754443
804.085332	804.000000	19289.500	805.152979
802.090505	802.000000	19947.500	803.212851
800.087946	800.000000	20236.000	801.282051
798.077527	798.000000	20786.000	799.360512
796.097467	796.000000	20956.000	796.812749
794.069129	794.000000	20660.000	794.912560
792.078706	792.000000	19931.000	793.650794
790.095739	790.000000	20490.000	791.765637
788.077336	788.000000	21401.000	789.889415
786.066500	786.000000	22101.000	788.643533
784.080900	784.000000	23062.000	786.163522
782.034845	782.000000	22388.500	786.163522
780.084444	780.000000	22861.500	783.085356
778.066190	778.000000	23200.000	778.210117
776.080636	776.000000	22285.000	777.000777
774.060011	774.000000	22353.500	774.593338
772.074617	772.000000	22155.000	772.797527
770.071747	770.000000	21613.000	771.604938
768.079064	768.000000	21020.000	771.010023
766.069026	766.000000	20037.500	769.230769
764.079113	764.000000	19487.000	765.110941
762.074480	762.000000	18877.500	763.941940
760.082533	760.000000	18584.000	760.456274
758.063445	758.000000	18093.000	758.725341
756.099188	756.000000	16645.000	757.002271
754.080708	754.000000	15254.500	755.287009
752.072467	752.000000	15462.500	753.579503
750.084234	750.000000	17743.500	751.314801
748.076713	748.000000	20080.000	749.625187
746.084251	746.000000	20814.500	747.384155
744.065169	744.000000	21238.000	747.384155
742.100489	742.000000	22371.500	744.601638
740.070018	740.000000	23310.000	741.289844
738.096333	738.000000	23514.000	741.289844
736.086385	736.000000	23605.000	740.192450
734.081857	734.000000	23276.000	737.463127
732.082751	732.000000	23466.500	733.675715
730.086561	730.000000	23401.000	732.600733
728.076365	728.000000	23836.500	729.394602
726.086170	726.000000	24061.000	727.802038
724.074739	724.000000	23833.000	725.689405
722.088134	722.000000	24003.000	723.589001
720.063556	720.000000	23824.000	722.021661
718.090311	718.000000	23959.500	719.942405
716.062316	716.000000	23802.000	717.875090
714.085566	714.000000	23604.000	717.360115
712.061539	712.000000	24297.500	714.796283
710.074213	710.000000	23461.500	712.250712
708.066112	708.000000	23235.000	711.743772
706.094663	706.000000	23962.000	709.219858
704.054842	704.000000	24108.500	706.713781
702.087299	702.000000	24244.000	705.716302
700.065974	700.000000	24074.500	702.740689
698.088271	698.000000	23832.500	702.247191
696.118464	696.000000	24157.500	698.324022
694.085737	694.000000	24457.000	698.324022
692.091813	692.000000	24059.500	685.400960
690.089453	690.000000	23449.500	692.520776
688.081033	688.000000	23692.500	690.131125
686.069019	686.000000	23831.500	688.705234
684.081465	684.000000	23585.000	687.757909
682.083295	682.000000	24360.000	676.589986
680.088531	680.000000	24062.000	683.060109
678.113540	678.000000	23960.500	681.198910
676.088455	676.000000	23833.500	678.886626
674.083200	674.000000	23319.000	677.048070
672.088404	672.000000	22665.000	673.854447
670.099452	670.000000	22921.000	673.854447
668.097866	668.000000	22975.500	670.690812
666.092983	666.000000	22780.500	660.938533
664.077870	664.000000	22109.000	668.896321
662.093981	662.000000	22429.500	663.570007
660.074720	660.000000	22906.000	664.010624
658.086664	658.000000	23568.500	648.508431
656.102240	656.000000	23807.500	659.630607
654.098684	654.000000	23355.000	657.030223
652.062425	652.000000	23550.000	647.249191
650.102742	650.000000	23437.500	654.022237
648.099103	648.000000	23023.000	652.315721
646.096964	646.000000	23122.000	650.195059
644.089650	644.000000	22035.000	638.162093
642.081660	642.000000	22129.000	645.577792
640.091067	640.000000	22842.500	645.577792
638.093112	638.000000	22498.500	641.436818
636.099013	636.000000	23209.500	641.436818
634.106603	634.000000	23220.500	637.755102
632.091354	632.000000	23200.500	635.324015
630.104595	630.000000	22848.500	634.115409
628.070637	628.000000	22637.000	632.111252
626.098568	626.000000	22393.500	621.504040
624.094945	624.000000	22064.000	626.959248
622.099810	622.000000	21989.000	624.219725
620.082359	620.000000	21864.500	623.441397
618.082231	618.000000	21606.500	613.496933
616.106047	616.000000	22141.000	620.347395
614.081214	614.000000	22230.000	616.522811
612.087067	612.000000	22320.000	615.763547
610.094775	610.000000	21783.000	605.693519
608.087158	608.000000	21460.500	610.128127
606.112034	606.000000	21366.000	602.772755
604.089079	604.000000	21507.000	607.164542
602.102929	602.000000	21397.000	607.164542
600.077902	600.000000	21371.000	603.136309
598.072353	598.000000	22461.500	594.883998
596.094911	596.000000	21611.000	598.444045
594.089593	594.000000	22079.000	597.728631
592.084470	592.000000	22610.500	595.238095
590.096563	590.000000	22936.000	586.854460
588.085402	588.000000	23243.000	590.667454
586.095803	586.000000	23325.000	586.510264
584.070425	584.000000	22937.500	586.166471
582.130085	582.000000	23238.500	583.090379
580.096910	580.000000	23427.500	582.411182
578.085373	578.000000	23624.500	582.411182
576.063811	576.000000	21840.500	578.703704
574.061678	574.000000	20887.000	575.705239
572.091446	572.000000	19381.500	574.052813
570.092340	570.000000	18050.500	572.082380
568.089697	568.000000	16831.500	570.450656
566.087680	566.000000	15111.500	570.776256
564.115348	564.000000	14043.000	566.893424
562.114590	562.000000	13557.000	565.291125
560.089825	560.000000	13034.500	564.334086
558.096850	558.000000	12356.500	561.167228
556.096328	556.000000	11511.000	558.347292
554.113076	554.000000	11710.000	551.876380
552.081674	552.000000	11445.000	555.864369
550.128628	550.000000	11231.000	548.245614

# Sect01 Ion Source 		# s01_ion_source 		# m03_ao09_bl0 		# 10.000000 		# None 	
# Sect01 Ion Source 		# s01_ion_source 		# m03_ao09_bl0 		# 10000 		# None 	
# Sect01 Ion Source 		# s01_ion_source 		# m03_ao09_high 		# -6.999939 		# None 	
# Sect01 Ion Source 		# s01_ion_source 		# m03_ao09_nc 		# 0 		# None 	
# Sect01 Ion Source 		# s01_ion_source 		# m03_ao09_width 		# 100000 		# None 	
# Sect01 Ion Source 		# s01_ion_source 		# m03_ao10_end 		# 0.000000 		# None 	
# Sect01 Ion Source 		# s01_ion_source 		# m03_ao11_bl1 		# 0.000000 		# None 	
# Sect01 Ion Source 		# s01_ion_source 		# m03_ao14_src_float 		# 0.000000 		# None 	
# Sect01 Ion Source 		# s01_ion_source 		# m03_ao00_nc 		# -6.000000 		# None 	
# Sect01 Ion Source 		# s01_ion_source 		# m03_ao01_bq0 		# -9.900055 		# None 	
# Sect01 Ion Source 		# s01_ion_source 		# m03_ao02_nc 		# 0.000000 		# None 	
# Sect01 Ion Source 		# s01_ion_source 		# m03_ao03_bq5 		# -9.590179 		# None 	
# Sect01 Ion Source 		# s01_ion_source 		# m03_ao04_nc 		# 0.000000 		# None 	
# Sect01 Ion Source 		# s01_ion_source 		# m03_ao05_bq4 		# 0.219940 		# None 	
# Sect01 Ion Source 		# s01_ion_source 		# m03_ao06_bq3 		# -0.200012 		# None 	
# Sect01 Ion Source 		# s01_ion_source 		# m03_ao07_bq2 		# -0.139893 		# None 	
# Sect01 Ion Source 		# s01_ion_source 		# m03_ao08_bq1 		# -0.050110 		# None 	
# Sect01 Ion Source 		# s01_ion_source 		# m03_ao15_qd1_float 		# -1.499969 		# None 	
# Sect01 Ion Source 		# s01_ion_source 		# m03_a_nc 		# 0.000000 		# None 	
# Sect01 Ion Source 		# s01_ion_source 		# m03_b_nc 		# 0.000000 		# None 	
# Sect01 Ion Source 		# s01_ion_source 		# m03_c_nc 		# 0.000000 		# None 	
# Sect01 Ion Source 		# s01_ion_source 		# m04_ao00_b_outer 		# -9.579651 		# None 	
# Sect01 Ion Source 		# s01_ion_source 		# m04_ao01_b_in 		# -3.000061 		# None 	
# Sect01 Ion Source 		# s01_ion_source 		# m04_ao02_b_inner 		# 0.500031 		# None 	
# Sect01 Ion Source 		# s01_ion_source 		# m04_ao06_b_out 		# 0.000000 		# None 	
# Sect01 Ion Source 		# s01_ion_source 		# m04_ao03_se_delay 		# 10000 		# None 	
# Sect01 Ion Source 		# s01_ion_source 		# m04_ao03_se_high 		# 0.699982 		# None 	
# Sect01 Ion Source 		# s01_ion_source 		# m04_ao03_se_trap_in 		# 0.699982 		# None 	
# Sect01 Ion Source 		# s01_ion_source 		# m04_ao03_se_width 		# 0 		# None 	
# Sect01 Ion Source 		# s01_ion_source 		# m04_ao04_sa_delay 		# 1630000 		# None 	
# Sect01 Ion Source 		# s01_ion_source 		# m04_ao04_sa_high 		# -0.899994 		# None 	
# Sect01 Ion Source 		# s01_ion_source 		# m04_ao04_sa_trap_out 		# 1.600006 		# None 	
# Sect01 Ion Source 		# s01_ion_source 		# m04_ao04_sa_width 		# 5000 		# None 	
# Sect01 Ion Source 		# s01_ion_source 		# m04_ao05_trap_float 		# 0.489929 		# None 	
# Sect01 Ion Source 		# s01_ion_source 		# m04_ao07_bl4 		# -2.699982 		# None 	
# Sect01 Ion Source 		# s01_ion_source 		# m04_ao08_bl5 		# -2.820038 		# None 	
# Sect01 Ion Source 		# s01_ion_source 		# m03_ao13_reso 		# 1.999939 		# None 	
# Sect01 Ion Source 		# s01_ion_source 		# m04_ao09_qd2_float 		# -10.000000 		# None 	
# Sect01 Ion Source 		# s01_ion_source 		# m03_ao02_nc1 		# 0.000000 		# None 	
# Sect01 Ion Source 		# s01_ion_source 		# m03_ao02_nc2 		# 0 		# None 	
# Sect01 Ion Source 		# s01_ion_source 		# m03_ao02_nc3 		# 0.000000 		# None 	
# Sect01 Ion Source 		# s01_ion_source 		# m03_ao02_nc4 		# 0 		# None 	
# Sect01 Ion Source 		# s01_ion_source 		# m03_ao04_nc1 		# 0.000000 		# None 	
# Sect01 Ion Source 		# s01_ion_source 		# m03_ao04_nc2 		# 0 		# None 	
# Sect01 Ion Source 		# s01_ion_source 		# m03_ao04_nc3 		# 0.000610 		# None 	
# Sect01 Ion Source 		# s01_ion_source 		# m03_ao04_nc4 		# 0 		# None 	
# Ortec 996 Gate 		# test_ao00 		# m03_ao00_nc1 		# 0.000000 		# None 	
# Ortec 996 Gate 		# test_ao00 		# m03_ao00_nc2 		# 0 		# None 	
# Ortec 996 Gate 		# test_ao00 		# m03_ao00_nc3 		# 0.000610 		# None 	
# Ortec 996 Gate 		# test_ao00 		# m03_ao00_nc4 		# 0 		# None 	