#wn (cm-1)       intensity
 549.047	   -0.10
 551.047	   -0.06
 553.047	    0.03
 555.047	    0.22
 557.047	   -0.18
 559.047	    0.05
 561.047	   -0.05
 563.047	   -0.15
 565.047	   -0.17
 567.047	   -0.38
 569.047	   -0.22
 571.047	   -0.44
 573.047	   -0.29
 575.047	   -0.51
 577.047	   -0.55
 579.047	   -0.44
 581.047	   -0.22
 583.047	   -0.42
 585.047	   -0.35
 587.047	   -0.42
 589.047	   -0.13
 591.047	   -0.26
 593.047	   -0.19
 595.047	    0.10
 597.047	    0.24
 599.047	    0.39
 601.047	    0.75
 603.047	    0.80
 605.047	    1.15
 607.047	    1.42
 609.047	    1.36
 611.047	    1.36
 613.047	    1.16
 615.047	    1.24
 617.047	    1.08
 619.047	    1.04
 621.047	    1.03
 623.047	    0.87
 625.047	    0.61
 627.047	    0.57
 629.047	    0.60
 631.047	    0.51
 633.047	    0.74
 635.047	    0.86
 637.047	    0.85
 639.047	    0.86
 641.047	    0.57
 643.047	    0.55
 645.047	    0.53
 647.047	    0.70
 649.047	    0.46
 651.047	    0.30
 653.047	    0.31
 655.047	    0.25
 657.047	    0.54
 659.047	    0.17
 661.047	    0.20
 663.047	    0.21
 665.047	    0.04
 667.047	    0.07
 669.047	   -0.03
 671.047	   -0.03
 673.047	    0.10
 675.047	    0.05
 677.047	   -0.03
 679.047	    0.06
 681.047	   -0.04
 683.047	    0.12
 685.047	    0.26
 687.047	    0.15
 689.047	    0.13
 691.047	    0.36
 693.047	    0.14
 695.047	    0.12
 697.047	    0.21
 699.047	    0.25
 701.047	    0.26
 703.047	    0.20
 705.047	    0.17
 707.047	   -0.02
 709.047	    0.01
 711.047	   -0.08
 713.047	   -0.17
 715.047	    0.27
 717.047	    0.19
 719.047	    0.05
 721.047	    0.10
 723.047	    0.03
 725.047	    0.11
 727.047	   -0.07
 729.047	    0.12
 731.047	   -0.09
 733.047	    0.06
 735.047	    0.23
 737.047	    0.26
 739.047	    0.32
 741.047	    0.76
 743.047	    0.94
 745.047	    1.19
 747.047	    1.38
 749.047	    1.87
 751.047	    2.60
 753.047	    3.31
 755.047	    3.59
 757.047	    3.16
 759.047	    2.78
 761.047	    2.52
 763.047	    2.38
 765.047	    2.09
 767.047	    1.70
 769.047	    1.22
 771.047	    0.95
 773.047	    0.65
 775.047	    0.54
 777.047	    0.48
 779.047	    0.41
 781.047	    0.35
 783.047	    0.30
 785.047	    0.16
 787.047	    0.15
 789.047	    0.20
 791.047	    0.32
 793.047	    0.10
 795.047	    0.26
 797.047	    0.17
 799.047	    0.16
 801.047	    0.12
 803.047	    0.27
 805.047	    0.22
 807.047	    0.34
 809.047	    0.31
 811.047	    0.41
 813.047	    0.49
 815.047	    0.59
 817.047	    0.54
 819.047	    0.52
 821.047	    0.60
 823.047	    0.40
 825.047	    0.54
 827.047	    0.72
 829.047	    0.58
 831.047	    0.75
 833.047	    0.77
 835.047	    0.57
 837.047	    0.78
 839.047	    0.92
 841.047	    0.95
 843.047	    0.77
 845.047	    0.97
 847.047	    0.86
 849.047	    0.98
 851.047	    0.97
 853.047	    0.94
 855.047	    0.85
 857.047	    1.00
 859.047	    0.88
 861.047	    1.06
 863.047	    0.90
 865.047	    0.91
 867.047	    1.00
 869.047	    0.93
 871.047	    0.74
 873.047	    0.82
 875.047	    0.75
 877.047	    0.67
 879.047	    0.69
 881.047	    0.70
 883.047	    0.55
 885.047	    0.55
 887.047	    0.47
 889.047	    0.49
 891.047	    0.47
 893.047	    0.41
 895.047	    0.31
 897.047	    0.27
 899.047	    0.45
 901.047	    0.41
 903.047	    0.46
 905.047	    0.59
 907.047	    0.51
 909.047	    0.59
 911.047	    0.71
 913.047	    0.84
 915.047	    1.10
 917.047	    1.52
 919.047	    2.10
 921.047	    2.62
 923.047	    2.89
 925.047	    3.23
 927.047	    3.20
 929.047	    3.09
 931.047	    3.07
 933.047	    2.85
 935.047	    2.32
 937.047	    1.88
 939.047	    1.44
 941.047	    0.97
 943.047	    0.87
 945.047	    0.73
 947.047	    0.55
 949.047	    0.47
 951.047	    0.40
 953.047	    0.34
 955.047	    0.28
 957.047	    0.28
 959.047	    0.21
 961.047	    0.20
 963.047	    0.14
 965.047	    0.14
 967.047	    0.15
 969.047	    0.10
 971.047	    0.12
 973.047	    0.12
 975.047	    0.12
 977.047	    0.09
 979.047	    0.08
 981.047	    0.12
 983.047	    0.15
 985.047	    0.14
 987.047	    0.04
 989.047	    0.12
 991.047	    0.07
 993.047	    0.06
 995.047	   -0.02
 997.047	    0.10
 999.047	    0.05
1001.047	    0.05
1003.047	    0.08
1005.047	    0.07
1007.047	   -0.02
1009.047	    0.00
1011.047	    0.04
1013.047	    0.06
1015.047	    0.03
1017.047	    0.03
1019.047	    0.05
1021.047	    0.03
1023.047	   -0.04
1025.047	    0.02
1027.047	    0.01
1029.047	    0.03
1031.047	    0.09
1033.047	   -0.01
1035.047	    0.12
1037.047	    0.12
1039.047	    0.14
1041.047	    0.17
1043.047	    0.09
1045.047	    0.08
1047.047	    0.12
1049.047	    0.10
1051.047	    0.09
1053.047	    0.13
1055.047	    0.16
1057.047	    0.20
1059.047	    0.26
1061.047	    0.14
1063.047	    0.27
1065.047	    0.40
1067.047	    0.49
1069.047	    0.64
1071.047	    0.42
1073.047	    0.06
1075.047	    0.19
1077.047	    0.02
1079.047	    0.09
1081.047	    0.03
1083.047	    0.14
1085.047	    0.12
1087.047	    0.17
1089.047	    0.18
1091.047	    0.21
1093.047	    0.32
1095.047	    0.38
1097.047	    0.36
1099.047	    0.30
1101.047	    0.31
1103.047	    0.35
1105.047	    0.38
1107.047	    0.31
1109.047	    0.30
1111.047	    0.33
1113.047	    0.29
1115.047	    0.45
1117.047	    0.42
1119.047	    0.45
1121.047	    0.55
1123.047	    0.57
1125.047	    0.60
1127.047	    0.60
1129.047	    0.50
1131.047	    0.52
1133.047	    0.49
1135.047	    0.53
1137.047	    0.52
1139.047	    0.58
1141.047	    0.63
1143.047	    0.57
1145.047	    0.52
1147.047	    0.49
1149.047	    0.52
1151.047	    0.42
1153.047	    0.49
1155.047	    0.52
1157.047	    0.61
1159.047	    0.53
1161.047	    0.56
1163.047	    0.46
1165.047	    0.53
1167.047	    0.54
1169.047	    0.57
1171.047	    0.59
1173.047	    0.58
1175.047	    0.59
1177.047	    0.64
1179.047	    0.60
1181.047	    0.62
1183.047	    0.67
1185.047	    0.69
1187.047	    0.57
1189.047	    0.61
1191.047	    0.62
1193.047	    0.62
1195.047	    0.60
1197.047	    0.61
1199.047	    0.61
1201.047	    0.61
1203.047	    0.61
1205.047	    0.61
1207.047	    0.64
1209.047	    0.66
1211.047	    0.73
1213.047	    0.63
1215.047	    0.69
1217.047	    0.69
1219.047	    0.74
1221.047	    0.80
1223.047	    0.78
1225.047	    0.75
1227.047	    0.85
1229.047	    0.83
1231.047	    0.75
1233.047	    0.80
1235.047	    0.58
1237.047	    0.56
1239.047	    0.73
1241.047	    0.66
1243.047	    0.63
1245.047	    0.60
1247.047	    0.52
1249.047	    0.54
1251.047	    0.60
1253.047	    0.59
1255.047	    0.58
1257.047	    0.54
1259.047	    0.51
1261.047	    0.59
1263.047	    0.69
1265.047	    0.66
1267.047	    0.68
1269.047	    0.77
1271.047	    0.85
1273.047	    0.84
1275.047	    1.03
1277.047	    1.17
1279.047	    1.33
1281.047	    1.57
1283.047	    1.92
1285.047	    2.29
1287.047	    2.77
1289.047	    2.96
1291.047	    3.28
1293.047	    2.97
1295.047	    3.34
1297.047	    3.27
1299.047	    3.20
1301.047	    3.00
1303.047	    2.68
1305.047	    2.29
1307.047	    2.07
1309.047	    1.73
1311.047	    1.10
1313.047	    1.46
1315.047	    1.21
1317.047	    1.14
1319.047	    1.11
1321.047	    0.97
1323.047	    0.99
1325.047	    0.98
1327.047	    0.95
1329.047	    0.86
1331.047	    0.86
1333.047	    0.86
1335.047	    0.75
1337.047	    0.75
1339.047	    0.74
1341.047	    0.66
1343.047	    0.68
1345.047	    0.74
1347.047	    0.65
1349.047	    0.70
1351.047	    0.68
1353.047	    0.61
1355.047	    0.73
1357.047	    0.66
1359.047	    0.69
1361.047	    0.72
1363.047	    0.75
1365.047	    0.77
1367.047	    0.82
1369.047	    0.86
1371.047	    0.89
1373.047	    0.83
1375.047	    0.87
1377.047	    0.93
1379.047	    0.92
1381.047	    1.03
1383.047	    1.00
1385.047	    1.08
1387.047	    1.06
1389.047	    0.53
1391.047	    1.28
1393.047	    1.06
1395.047	    1.14
1397.047	    1.19
1399.047	    1.08
1401.047	    1.10
1403.047	    1.18
1405.047	    1.16
1407.047	    1.10
1409.047	    1.12
1411.047	    1.20
1413.047	    1.03
1415.047	    0.75
1417.047	    0.93
1419.047	    1.01
1421.047	    1.02
1423.047	    1.07
1425.047	    1.02
1427.047	    1.08
1429.047	    1.07
1431.047	    1.16
1433.047	    1.14
1435.047	    1.20
1437.047	    1.15
1439.047	    1.13
1441.047	    1.24
1443.047	    1.23
1445.047	    1.18
1447.047	    1.18
1449.047	    1.21
1451.047	    1.15
1453.047	    1.14
1455.047	    0.99
1457.047	    1.03
1459.047	    1.12
1461.047	    1.15
1463.047	    1.08
1465.047	    1.15
1467.047	    1.30
1469.047	    1.30
1471.047	    1.32
1473.047	    1.27
1475.047	    1.41
1477.047	    1.37
1479.047	    1.39
1481.047	    1.44
1483.047	    1.37
1485.047	    1.42
1487.047	    1.39
1489.047	    1.16
1491.047	    1.16
1493.047	    1.13
1495.047	    1.11
1497.047	    1.19
1499.047	    1.25
1501.047	    1.20
1503.047	    1.17
1505.047	    1.25
1507.047	    1.29
1509.047	    1.35
1511.047	    1.37
1513.047	    1.13
1515.047	    1.02
1517.047	    0.98
1519.047	    0.97
1521.047	    0.99
1523.047	    0.95
1525.047	    0.94
1527.047	    1.01
1529.047	    1.06
1531.047	    1.01
1533.047	    0.99
1535.047	    1.01
1537.047	    0.95
1539.047	    1.00
1541.047	    0.97
1543.047	    0.95
1545.047	    0.92
1547.047	    0.89
1549.047	    0.82
1551.047	    0.75
1553.047	    0.77
1555.047	    0.73
1557.047	    0.72
1559.047	    0.65
1561.047	    0.61
1563.047	    0.58
1565.047	    0.65
1567.047	    0.57
1569.047	    0.59
1571.047	    0.54
1573.047	    0.58
1575.047	    0.63
1577.047	    0.69
1579.047	    0.67
1581.047	    0.61
1583.047	    0.65
1585.047	    0.63
1587.047	    0.64
1589.047	    1.13
1591.047	    0.51
1593.047	    0.53
1595.047	    0.40
1597.047	    0.41
1599.047	    0.40
1601.047	    0.33
1603.047	    0.30
1605.047	    0.27
1607.047	    0.20
1609.047	    0.28
1611.047	    0.23
1613.047	    0.28
1615.047	    0.17
1617.047	    0.29
1619.047	    0.24
1621.047	    0.32
1623.047	    0.23
1625.047	    0.17
1627.047	    0.18
1629.047	    0.20
1631.047	    0.14
1633.047	    0.09
1635.047	    0.09
1637.047	    0.04
1639.047	    0.07
1641.047	    0.08
1643.047	    0.08
1645.047	    0.02
1647.047	    0.12
1649.047	    0.08
1651.047	    0.14
1653.047	    0.17
1655.047	    0.19
1657.047	    0.16
1659.047	    0.15
1661.047	    0.16
1663.047	    0.15
1665.047	    0.08
1667.047	    0.08
1669.047	    0.05
1671.047	    0.09
1673.047	    0.09
1675.047	   -0.05
1677.047	    0.11
1679.047	    0.03
1681.047	    0.11
1683.047	    0.07
1685.047	    0.09
1687.047	    0.13
1689.047	    0.11
1691.047	    0.13
1693.047	    0.21
1695.047	    0.14
1697.047	    0.18
1699.047	    0.21
1701.047	    0.07
1703.047	    0.12
1705.047	    0.10
1707.047	    0.12
1709.047	    0.08
1711.047	    0.06
1713.047	    0.10
1715.047	    0.05
1717.047	   -0.01
1719.047	   -0.01
1721.047	    0.02
1723.047	    0.00
1725.047	   -0.07
1727.047	   -0.10
1729.047	    0.00
1731.047	   -0.01
1733.047	    0.11
1735.047	    0.15
1737.047	    0.20
1739.047	    0.17
1741.047	    0.17
1743.047	    0.16
1745.047	    0.27
1747.047	    0.25
1749.047	    0.15
1751.047	    0.19
1753.047	    0.10
1755.047	    0.14
1757.047	   -0.03
1759.047	   -0.00
1761.047	   -0.11
1763.047	   -0.18
1765.047	   -0.14
1767.047	   -0.13
1769.047	   -0.19
1771.047	   -0.12
1773.047	   -0.18
1775.047	   -0.15
1777.047	   -0.17
1779.047	   -0.24
1781.047	   -0.27
1783.047	   -0.21
1785.047	   -0.22
1787.047	   -0.15
1789.047	   -0.22
1791.047	   -0.20
1793.047	   -0.18
1795.047	   -0.26
1797.047	   -0.16
1799.047	   -0.09
1801.047	   -0.05
